Folder: p1-start/raw-data (part 2)

File: Sp15_245L_sect-001_group-1_ultem.raw
"Test Type","Manual"
"Method Name:","C:\INSTRON\user\template\Sp15_245Lsect001_group-3_aluminum_bendtest.mtM"
"Name:","4FtPerMin"
"Operator ID:","Jaques"
"Company:","BSU"
"Lab name:",""
"Test date:","1/26/15"
"Temperature:",""
"Humidity:",""
"Note 1:",""
"Note 2:",""
"Note 3:",""
"Geometry:","Circular"
"Specimen",1
"Specimen name:",""
"Width:",6.350000,"mm"
"Thickness:",1.524000,"mm"
"Length:",12,"mm"
"Diameter:",5.000000,"um"
"Inner diameter:",0.500000,"mm"
"Outer diameter:",1.000000,"mm"
"Wall thickness:",0.500000,"mm"
"Area:",19.635,"um*um"
"Linear density:",1.000000,"den"
"Sled weight:",9.806650,"N"
"Loading span:",0.000000,"mm"
"Support span:",1.000000,"mm"
"Span ratio:","2"
"Fixture type:","3-point"
"Comment:",""
"Included"
"Time sec","Extension mm","Load N","Stress MPa","Cycle Count ","Total Cycle Count ","Repetitions Count ","Strain [Exten.] %","Tenacity gf/tex"
0,0,-5.028902,-256119.9,0,0,0,0,-4615.247
0.086,0,-5.031087,-256231.2,0,0,0,0,-4617.253
0.136,0,-5.007415,-255025.5,0,0,0,0,-4595.528
0.182,-0.000236111,-5.081031,-258774.8,0,0,0,-0.001967592,-4663.088
0.224,-0.000236111,-5.04117,-256744.7,0,0,0,-0.001967592,-4626.507
0.288,-0.000472222,-5.103446,-259916.4,0,0,0,-0.003935183,-4683.66
0.318,-0.000944444,-5.197389,-264700.8,0,0,0,-0.007870367,-4769.875
0.35,-0.001652777,-5.30529,-270196.2,0,0,0,-0.01377314,-4868.901
0.376,-0.00236111,-5.400891,-275065.2,0,0,0,-0.01967592,-4956.639
0.408,-0.003069443,-5.482883,-279240.9,0,0,0,-0.02557869,-5031.886
0.44,-0.003777776,-5.553667,-282845.9,0,0,0,-0.03148147,-5096.847
0.476,-0.004486109,-5.634225,-286948.7,0,0,0,-0.03738425,-5170.779
0.548,-0.005194443,-5.715035,-291064.4,0,0,0,-0.04328702,-5244.943
0.634,-0.005902775,-5.789554,-294859.6,0,0,0,-0.04918979,-5313.332
0.71,-0.00684722,-5.840425,-297450.4,0,0,0,-0.05706016,-5360.019
0.782,-0.007555552,-5.930095,-302017.3,0,0,0,-0.06296293,-5442.312
0.856,-0.008263885,-5.99796,-305473.6,0,0,0,-0.06886571,-5504.595
0.918,-0.008972219,-6.074902,-309392.2,0,0,0,-0.07476849,-5575.208
1.012,-0.009916663,-6.141378,-312777.8,0,0,0,-0.08263886,-5636.216
1.088,-0.010625,-6.227952,-317187,0,0,0,-0.08854163,-5715.669
1.156,-0.01133333,-6.296972,-320702.2,0,0,0,-0.09444441,-5779.012
1.234,-0.01204166,-6.364846,-324159,0,0,0,-0.1003472,-5841.303
1.314,-0.01298611,-6.449427,-328466.6,0,0,0,-0.1082175,-5918.927
1.408,-0.01369444,-6.53527,-332838.6,0,0,0,-0.1141203,-5997.709
1.472,-0.01440277,-6.597534,-336009.7,0,0,0,-0.1200231,-6054.852
1.542,-0.0151111,-6.670753,-339738.7,0,0,0,-0.1259259,-6122.047
1.612,-0.01605555,-6.732092,-342862.7,0,0,0,-0.1337962,-6178.341
1.684,-0.01676388,-6.816149,-347143.6,0,0,0,-0.139699,-6255.484
1.74,-0.01747222,-6.890526,-350931.6,0,0,0,-0.1456018,-6323.743
1.828,-0.01841666,-6.958901,-354413.9,0,0,0,-0.1534722,-6386.494
1.928,-0.01912499,-7.032854,-358180.3,0,0,0,-0.1593749,-6454.364
1.994,-0.01983333,-7.109882,-362103.3,0,0,0,-0.1652777,-6525.056
2.062,-0.02054166,-7.185617,-365960.5,0,0,0,-0.1711805,-6594.561
2.154,-0.0214861,-7.266321,-370070.7,0,0,0,-0.1790509,-6668.626
2.22,-0.02219444,-7.344625,-374058.7,0,0,0,-0.1849536,-6740.49
2.316,-0.02290277,-7.407796,-377276,0,0,0,-0.1908564,-6798.465
2.382,-0.0236111,-7.466737,-380277.8,0,0,0,-0.1967592,-6852.557
2.458,-0.02408332,-7.544463,-384236.3,0,0,0,-0.2006944,-6923.89
2.528,-0.02502777,-7.613757,-387765.5,0,0,0,-0.2085647,-6987.484
2.628,-0.02597221,-7.697621,-392036.7,0,0,0,-0.2164351,-7064.45
2.684,-0.02644443,-7.781557,-396311.4,0,0,0,-0.2203703,-7141.481
2.774,-0.02738888,-7.84776,-399683.1,0,0,0,-0.2282407,-7202.239
2.84,-0.02809721,-7.931345,-403940.1,0,0,0,-0.2341434,-7278.949
2.942,-0.02904166,-8.007717,-407829.7,0,0,0,-0.2420138,-7349.039
3.014,-0.02974999,-8.086028,-411818,0,0,0,-0.2479166,-7420.908
3.08,-0.03045832,-8.153928,-415276.2,0,0,0,-0.2538193,-7483.224
3.158,-0.03116666,-8.22801,-419049.1,0,0,0,-0.2597221,-7551.211
3.244,-0.0321111,-8.305828,-423012.3,0,0,0,-0.2675925,-7622.629
3.316,-0.03281943,-8.376531,-426613.3,0,0,0,-0.2734953,-7687.516
3.398,-0.03376387,-8.450922,-430401.9,0,0,0,-0.2813656,-7755.788
3.468,-0.03447221,-8.523984,-434122.9,0,0,0,-0.2872684,-7822.84
3.54,-0.03518054,-8.598757,-437931.1,0,0,0,-0.2931712,-7891.463
3.614,-0.03588887,-8.654571,-440773.7,0,0,0,-0.299074,-7942.686
3.67,-0.0363611,-8.733044,-444770.3,0,0,0,-0.3030091,-8014.704
3.75,-0.03730554,-8.806424,-448507.5,0,0,0,-0.3108795,-8082.048
3.838,-0.03801387,-8.884668,-452492.4,0,0,0,-0.3167823,-8153.856
3.916,-0.03895832,-8.959536,-456305.4,0,0,0,-0.3246527,-8222.565
3.982,-0.03943054,-9.043876,-460600.8,0,0,0,-0.3285878,-8299.969
4.06,-0.04037498,-9.108353,-463884.6,0,0,0,-0.3364582,-8359.142
4.124,-0.0408472,-9.182413,-467656.5,0,0,0,-0.3403934,-8427.11
4.212,-0.04179165,-9.258675,-471540.5,0,0,0,-0.3482637,-8497.1
4.294,-0.04273609,-9.312075,-474260.1,0,0,0,-0.3561341,-8546.106
4.348,-0.04320832,-9.385663,-478007.9,0,0,0,-0.3600693,-8613.642
4.412,-0.04391665,-9.457999,-481691.9,0,0,0,-0.3659721,-8680.027
4.504,-0.04462499,-9.53594,-485661.5,0,0,0,-0.3718749,-8751.558
4.576,-0.04533332,-9.603262,-489090.1,0,0,0,-0.3777776,-8813.342
4.64,-0.04604165,-9.671093,-492544.7,0,0,0,-0.3836804,-8875.594
4.718,-0.04674998,-9.74752,-496437.1,0,0,0,-0.3895831,-8945.733
4.778,-0.04745831,-9.81066,-499652.8,0,0,0,-0.3954859,-9003.681
4.862,-0.04816664,-9.880753,-503222.6,0,0,0,-0.4013887,-9068.008
4.92,-0.04887498,-9.949406,-506719.1,0,0,0,-0.4072915,-9131.014
5.016,-0.04981942,-10.01706,-510164.8,0,0,0,-0.4151618,-9193.104
5.076,-0.05052776,-10.09542,-514155.6,0,0,0,-0.4210646,-9265.02
5.158,-0.05123609,-10.17943,-518434.1,0,0,0,-0.4269674,-9342.116
5.236,-0.05194442,-10.24906,-521980.6,0,0,0,-0.4328702,-9406.023
5.302,-0.05288887,-10.31609,-525394.1,0,0,0,-0.4407406,-9467.535
5.382,-0.0535972,-10.39572,-529449.5,0,0,0,-0.4466433,-9540.612
5.458,-0.05430553,-10.47117,-533292.4,0,0,0,-0.4525461,-9609.86
5.54,-0.05524998,-10.5422,-536909.9,0,0,0,-0.4604165,-9675.048
5.64,-0.05619442,-10.62168,-540957.9,0,0,0,-0.4682868,-9747.993
5.718,-0.05690275,-10.70047,-544970.3,0,0,0,-0.4741896,-9820.296
5.794,-0.05761109,-10.77116,-548570.8,0,0,0,-0.4800924,-9885.175
5.872,-0.05831942,-10.84403,-552281.8,0,0,0,-0.4859952,-9952.048
5.942,-0.05926386,-10.91301,-555794.8,0,0,0,-0.4938655,-10015.35
6.014,-0.06020831,-10.98588,-559506.3,0,0,0,-0.5017359,-10082.23
6.076,-0.06091664,-11.06092,-563328.1,0,0,0,-0.5076387,-10151.1
6.15,-0.06162497,-11.12784,-566736.4,0,0,0,-0.5135415,-10212.52
6.222,-0.0620972,-11.1952,-570166.8,0,0,0,-0.5174766,-10274.33
6.316,-0.06304164,-11.26778,-573863.5,0,0,0,-0.525347,-10340.95
6.38,-0.06374998,-11.34072,-577578.1,0,0,0,-0.5312498,-10407.88
6.472,-0.0644583,-11.41993,-581612.1,0,0,0,-0.5371525,-10480.58
6.548,-0.06540275,-11.48942,-585151.6,0,0,0,-0.5450229,-10544.36
6.614,-0.06611108,-11.56419,-588959.4,0,0,0,-0.5509257,-10612.97
6.692,-0.06681942,-11.63717,-592676.3,0,0,0,-0.5568284,-10679.95
6.768,-0.06776386,-11.7028,-596018.8,0,0,0,-0.5646988,-10740.18
6.852,-0.0684722,-11.77433,-599661.6,0,0,0,-0.5706016,-10805.83
6.934,-0.06941664,-11.84535,-603278.7,0,0,0,-0.578472,-10871
7.008,-0.07012497,-11.92778,-607476.9,0,0,0,-0.5843747,-10946.66
7.082,-0.0708333,-12.00472,-611395.6,0,0,0,-0.5902776,-11017.27
7.176,-0.07154164,-12.07392,-614919.5,0,0,0,-0.5961803,-11080.77
7.26,-0.07224997,-12.15436,-619016.4,0,0,0,-0.6020831,-11154.6
7.338,-0.0729583,-12.22807,-622770.3,0,0,0,-0.6079859,-11222.24
7.416,-0.07390274,-12.28731,-625787.6,0,0,0,-0.6158562,-11276.61
7.472,-0.07437497,-12.36553,-629771.6,0,0,0,-0.6197914,-11348.4
7.548,-0.0750833,-12.44565,-633851.8,0,0,0,-0.6256942,-11421.93
7.63,-0.07602775,-12.5136,-637312.6,0,0,0,-0.6335645,-11484.29
7.694,-0.07673609,-12.58498,-640947.8,0,0,0,-0.6394674,-11549.8
7.774,-0.07744441,-12.67466,-645515.2,0,0,0,-0.6453701,-11632.1
7.85,-0.07815275,-12.74355,-649023.6,0,0,0,-0.651273,-11695.32
7.924,-0.07886108,-12.81144,-652481.1,0,0,0,-0.6571757,-11757.63
7.988,-0.07956942,-12.89055,-656510.2,0,0,0,-0.6630785,-11830.23
8.05,-0.08027774,-12.96049,-660072.4,0,0,0,-0.6689812,-11894.42
8.14,-0.08098608,-13.03375,-663803.3,0,0,0,-0.674884,-11961.65
8.192,-0.08169441,-13.09885,-667119,0,0,0,-0.6807867,-12021.4
8.264,-0.08240275,-13.17026,-670755.9,0,0,0,-0.6866896,-12086.93
8.352,-0.08311108,-13.25371,-675005.8,0,0,0,-0.6925923,-12163.52
8.414,-0.08381941,-13.33687,-679241.4,0,0,0,-0.6984951,-12239.84
8.496,-0.08476386,-13.4114,-683037.3,0,0,0,-0.7063655,-12308.24
8.564,-0.08547218,-13.48372,-686720.4,0,0,0,-0.7122682,-12374.62
8.628,-0.08594441,-13.56038,-690624.3,0,0,0,-0.7162035,-12444.96
8.706,-0.08688885,-13.6233,-693828.8,0,0,0,-0.7240738,-12502.71
8.786,-0.08759719,-13.71133,-698312.3,0,0,0,-0.7299766,-12583.5
8.866,-0.08830551,-13.78576,-702103.1,0,0,0,-0.7358793,-12651.81
8.926,-0.08901386,-13.85722,-705742.2,0,0,0,-0.7417821,-12717.38
8.994,-0.08972218,-13.94734,-710331.9,0,0,0,-0.7476848,-12800.09
9.058,-0.09066664,-14.01166,-713608.1,0,0,0,-0.7555553,-12859.13
9.112,-0.09113885,-14.09723,-717966,0,0,0,-0.7594904,-12937.66
9.192,-0.09208329,-14.16813,-721577.1,0,0,0,-0.7673607,-13002.73
9.268,-0.09255552,-14.24463,-725472.9,0,0,0,-0.771296,-13072.93
9.342,-0.09349996,-14.31756,-729187.6,0,0,0,-0.7791663,-13139.87
9.412,-0.09420829,-14.3871,-732729.1,0,0,0,-0.7850691,-13203.68
9.47,-0.09468052,-14.46235,-736561.4,0,0,0,-0.7890043,-13272.74
9.544,-0.09562496,-14.53433,-740227.2,0,0,0,-0.7968747,-13338.8
9.62,-0.09633329,-14.60897,-744028.9,0,0,0,-0.8027774,-13407.31
9.71,-0.09704163,-14.69353,-748335.4,0,0,0,-0.8086802,-13484.91
9.806,-0.09798607,-14.77036,-752248.1,0,0,0,-0.8165506,-13555.42
9.858,-0.09869441,-14.84655,-756128.8,0,0,0,-0.8224534,-13625.34
9.94,-0.09940273,-14.92203,-759972.9,0,0,0,-0.8283561,-13694.61
10.002,-0.1001111,-14.98103,-762977.6,0,0,0,-0.834259,-13748.76

File: Sp15_245L_sect-001_group-2-4_bendtest-steel.raw
"Test Type","Manual"
"Method Name:","C:\INSTRON\user\template\245L-Mod01.mtM"
"Name:","4FtPerMin"
"Operator ID:","Jaques"
"Company:","BSU"
"Lab name:",""
"Test date:","2/2/15"
"Temperature:",""
"Humidity:",""
"Note 1:",""
"Note 2:",""
"Note 3:",""
"Geometry:","Circular"
"Specimen",1
"Specimen name:",""
"Width:",6.350000,"mm"
"Thickness:",1.524000,"mm"
"Length:",12,"mm"
"Diameter:",5.000000,"um"
"Inner diameter:",0.500000,"mm"
"Outer diameter:",1.000000,"mm"
"Wall thickness:",0.500000,"mm"
"Area:",19.635,"um*um"
"Linear density:",1.000000,"den"
"Sled weight:",9.806650,"N"
"Loading span:",0.000000,"mm"
"Support span:",1.000000,"mm"
"Span ratio:","2"
"Fixture type:","3-point"
"Comment:",""
"Included"
"Time sec","Extension mm","Load N","Stress MPa","Cycle Count ","Total Cycle Count ","Repetitions Count ","Strain [Exten.] %","Tenacity gf/tex"
0,0,-5.583295,-284354.9,0,0,0,0,-5124.039
0.154,-0.000472222,-5.704967,-290551.6,0,0,0,-0.003935183,-5235.703
0.248,-0.000944444,-5.886434,-299793.6,0,0,0,-0.007870367,-5402.243
0.328,-0.001652777,-6.064299,-308852.3,0,0,0,-0.01377314,-5565.478
0.398,-0.002124999,-6.250886,-318355,0,0,0,-0.01770833,-5736.717
0.488,-0.002833332,-6.422787,-327109.9,0,0,0,-0.0236111,-5894.479
0.53,-0.003305554,-6.632577,-337794.4,0,0,0,-0.02754628,-6087.011
0.56,-0.003777776,-6.824282,-347557.8,0,0,0,-0.03148147,-6262.948
0.606,-0.00472222,-7.034987,-358288.9,0,0,0,-0.03935184,-6456.321
0.644,-0.005194443,-7.235283,-368490,0,0,0,-0.04328702,-6640.142
0.684,-0.005902775,-7.427444,-378276.6,0,0,0,-0.04918979,-6816.496
0.742,-0.006611108,-7.642922,-389250.8,0,0,0,-0.05509257,-7014.251
0.8,-0.007555552,-7.840966,-399337.1,0,0,0,-0.06296293,-7196.004
0.858,-0.008263885,-8.054201,-410197.1,0,0,0,-0.06886571,-7391.699
0.918,-0.008972219,-8.229073,-419103.3,0,0,0,-0.07476849,-7552.188
1,-0.009916663,-8.433556,-429517.5,0,0,0,-0.08263886,-7739.851
1.066,-0.010625,-8.645176,-440295.2,0,0,0,-0.08854163,-7934.063
1.13,-0.01109722,-8.83274,-449847.8,0,0,0,-0.09247681,-8106.199
1.194,-0.01180555,-9.020574,-459414.1,0,0,0,-0.09837959,-8278.583
1.264,-0.01251388,-9.20591,-468853.2,0,0,0,-0.1042824,-8448.675
1.332,-0.01322222,-9.394075,-478436.3,0,0,0,-0.1101851,-8621.361
1.39,-0.01369444,-9.574673,-487634.1,0,0,0,-0.1141203,-8787.104
1.462,-0.01440277,-9.749788,-496552.6,0,0,0,-0.1200231,-8947.815
1.524,-0.0151111,-9.954242,-506965.4,0,0,0,-0.1259259,-9135.452
1.582,-0.01581944,-10.14078,-516465.7,0,0,0,-0.1318286,-9306.646
1.65,-0.01652777,-10.32964,-526084.1,0,0,0,-0.1377314,-9479.968
1.71,-0.01699999,-10.51447,-535497.7,0,0,0,-0.1416666,-9649.601
1.776,-0.01770833,-10.71709,-545816.8,0,0,0,-0.1475694,-9835.548
1.84,-0.01841666,-10.91173,-555730.1,0,0,0,-0.1534722,-10014.18
1.91,-0.01912499,-11.09036,-564827.6,0,0,0,-0.1593749,-10178.12
1.974,-0.01959721,-11.2808,-574526.4,0,0,0,-0.1633101,-10352.89
2.038,-0.02030555,-11.47846,-584593.1,0,0,0,-0.1692129,-10534.29
2.108,-0.02101388,-11.65122,-593391.9,0,0,0,-0.1751157,-10692.85
2.174,-0.02172221,-11.85691,-603867.4,0,0,0,-0.1810184,-10881.61
2.242,-0.02243054,-12.04357,-613374,0,0,0,-0.1869212,-11052.92
2.306,-0.02290277,-12.22313,-622519,0,0,0,-0.1908564,-11217.71
2.368,-0.0236111,-12.41464,-632272.4,0,0,0,-0.1967592,-11393.47
2.436,-0.02431944,-12.59328,-641370.4,0,0,0,-0.202662,-11557.41
2.494,-0.02479165,-12.78322,-651044.1,0,0,0,-0.2065971,-11731.73
2.556,-0.02549999,-12.97195,-660656.2,0,0,0,-0.2124999,-11904.94
2.624,-0.02620832,-13.15489,-669973.3,0,0,0,-0.2184027,-12072.83
2.688,-0.02691665,-13.35785,-680309.9,0,0,0,-0.2243055,-12259.1
2.752,-0.02762499,-13.52646,-688896.8,0,0,0,-0.2302082,-12413.83
2.81,-0.02809721,-13.71416,-698456.5,0,0,0,-0.2341434,-12586.1
2.868,-0.02880554,-13.88434,-707123.5,0,0,0,-0.2400462,-12742.28
2.942,-0.02951388,-14.09242,-717721.2,0,0,0,-0.245949,-12933.24
3.006,-0.0299861,-14.29297,-727934.8,0,0,0,-0.2498841,-13117.29
3.074,-0.03093054,-14.49791,-738372.4,0,0,0,-0.2577545,-13305.38
3.134,-0.03140276,-14.68691,-747998.3,0,0,0,-0.2616897,-13478.83
3.2,-0.0321111,-14.87323,-757487.2,0,0,0,-0.2675925,-13649.82
3.268,-0.03281943,-15.04748,-766361.8,0,0,0,-0.2734953,-13809.74
3.334,-0.03329165,-15.25315,-776836.3,0,0,0,-0.2774304,-13998.49
3.398,-0.03399999,-15.44268,-786489.3,0,0,0,-0.2833332,-14172.44
3.466,-0.03470832,-15.61954,-795496.9,0,0,0,-0.289236,-14334.75
3.528,-0.03518054,-15.82524,-805972.9,0,0,0,-0.2931712,-14523.53
3.598,-0.03588887,-15.98463,-814090.8,0,0,0,-0.299074,-14669.81
3.652,-0.03659721,-16.17603,-823838.3,0,0,0,-0.3049767,-14845.46
3.722,-0.03730554,-16.36335,-833378.3,0,0,0,-0.3108795,-15017.37
3.786,-0.03801387,-16.56902,-843853.3,0,0,0,-0.3167823,-15206.13
3.846,-0.0384861,-16.75213,-853178.8,0,0,0,-0.3207175,-15374.17
3.914,-0.03919443,-16.9281,-862141.3,0,0,0,-0.3266203,-15535.68
3.974,-0.03966665,-17.12945,-872395.8,0,0,0,-0.3305554,-15720.46
4.052,-0.04061109,-17.34743,-883497.5,0,0,0,-0.3384258,-15920.51
4.118,-0.04131943,-17.53569,-893085.4,0,0,0,-0.3443286,-16093.29
4.184,-0.04179165,-17.73514,-903243.2,0,0,0,-0.3482637,-16276.33
4.246,-0.04249998,-17.92769,-913049.8,0,0,0,-0.3541665,-16453.04
4.314,-0.04320832,-18.09729,-921687.4,0,0,0,-0.3600693,-16608.69
4.38,-0.04391665,-18.31779,-932917.3,0,0,0,-0.3659721,-16811.05
4.454,-0.04462499,-18.52481,-943461.1,0,0,0,-0.3718749,-17001.05
4.512,-0.0450972,-18.70516,-952646.1,0,0,0,-0.37581,-17166.56
4.574,-0.04580554,-18.88424,-961766.4,0,0,0,-0.3817128,-17330.91
4.638,-0.04651387,-19.08533,-972008.1,0,0,0,-0.3876156,-17515.46
4.698,-0.04698609,-19.27441,-981637.6,0,0,0,-0.3915508,-17688.99
4.762,-0.04769443,-19.46414,-991300.7,0,0,0,-0.3974535,-17863.11
4.826,-0.04840276,-19.65282,-1000910,0,0,0,-0.4033563,-18036.27
4.904,-0.04911109,-19.85672,-1011295,0,0,0,-0.4092591,-18223.4
4.964,-0.04958331,-20.08368,-1022854,0,0,0,-0.4131942,-18431.69
5.044,-0.05052776,-20.30399,-1034074,0,0,0,-0.4210646,-18633.88
5.122,-0.05123609,-20.50829,-1044479,0,0,0,-0.4269674,-18821.38
5.186,-0.05194442,-20.69726,-1054103,0,0,0,-0.4328702,-18994.8
5.246,-0.05241664,-20.90321,-1064592,0,0,0,-0.4368054,-19183.81
5.308,-0.05312498,-21.10414,-1074825,0,0,0,-0.4427081,-19368.21
5.38,-0.05383331,-21.2946,-1084525,0,0,0,-0.4486109,-19543.01
5.436,-0.05454164,-21.46101,-1093000,0,0,0,-0.4545137,-19695.73
5.504,-0.05524998,-21.66776,-1103530,0,0,0,-0.4604165,-19885.47
5.57,-0.0557222,-21.89116,-1114908,0,0,0,-0.4643517,-20090.5
5.636,-0.05643053,-22.0857,-1124816,0,0,0,-0.4702544,-20269.04
5.69,-0.05713886,-22.28359,-1134894,0,0,0,-0.4761572,-20450.64
5.75,-0.0578472,-22.46031,-1143894,0,0,0,-0.48206,-20612.83
5.808,-0.05831942,-22.65392,-1153755,0,0,0,-0.4859952,-20790.52
5.868,-0.05902775,-22.84672,-1163574,0,0,0,-0.4918979,-20967.46
5.926,-0.05973608,-23.01217,-1172000,0,0,0,-0.4978007,-21119.29
5.982,-0.06020831,-23.18337,-1180720,0,0,0,-0.5017359,-21276.41
6.052,-0.06091664,-23.35669,-1189546,0,0,0,-0.5076387,-21435.47
6.116,-0.06138886,-23.56588,-1200201,0,0,0,-0.5115739,-21627.46
6.174,-0.0620972,-23.72807,-1208461,0,0,0,-0.5174766,-21776.3
6.236,-0.06280552,-23.90225,-1217332,0,0,0,-0.5233794,-21936.16
6.292,-0.06327775,-24.10299,-1227555,0,0,0,-0.5273145,-22120.39
6.366,-0.06398609,-24.28329,-1236738,0,0,0,-0.5332174,-22285.86
6.422,-0.06469441,-24.47565,-1246535,0,0,0,-0.5391201,-22462.39
6.49,-0.06516664,-24.653,-1255567,0,0,0,-0.5430554,-22625.15
6.552,-0.06587497,-24.82444,-1264299,0,0,0,-0.5489581,-22782.5
6.612,-0.06658331,-25.02167,-1274343,0,0,0,-0.5548609,-22963.5
6.68,-0.06705553,-25.21022,-1283946,0,0,0,-0.5587961,-23136.54
6.744,-0.06776386,-25.40078,-1293651,0,0,0,-0.5646988,-23311.43
6.816,-0.0684722,-25.60577,-1304091,0,0,0,-0.5706016,-23499.56
6.882,-0.06918052,-25.77783,-1312854,0,0,0,-0.5765043,-23657.46
6.94,-0.06965275,-25.96239,-1322254,0,0,0,-0.5804396,-23826.84
7.002,-0.07036108,-26.14276,-1331440,0,0,0,-0.5863424,-23992.38
7.066,-0.07106941,-26.30471,-1339688,0,0,0,-0.5922451,-24141
7.128,-0.07154164,-26.49917,-1349592,0,0,0,-0.5961803,-24319.47
7.192,-0.07224997,-26.69778,-1359707,0,0,0,-0.6020831,-24501.74
7.262,-0.0729583,-26.87697,-1368833,0,0,0,-0.6079859,-24666.2
7.318,-0.07343053,-27.0647,-1378394,0,0,0,-0.6119211,-24838.48
7.384,-0.07413886,-27.26801,-1388748,0,0,0,-0.6178238,-25025.06
7.456,-0.07484719,-27.46464,-1398763,0,0,0,-0.6237266,-25205.53
7.52,-0.07555552,-27.65542,-1408479,0,0,0,-0.6296294,-25380.61
7.582,-0.07602775,-27.85177,-1418479,0,0,0,-0.6335645,-25560.81
7.642,-0.07673609,-28.0138,-1426731,0,0,0,-0.6394674,-25709.51
7.708,-0.0772083,-28.21841,-1437152,0,0,0,-0.6434025,-25897.29
7.77,-0.07791664,-28.40695,-1446754,0,0,0,-0.6493053,-26070.32
7.838,-0.07838886,-28.58308,-1455725,0,0,0,-0.6532405,-26231.97
7.898,-0.07909719,-28.77321,-1465408,0,0,0,-0.6591433,-26406.46
7.972,-0.07956942,-28.9417,-1473989,0,0,0,-0.6630785,-26561.09
8.034,-0.08027774,-29.11985,-1483062,0,0,0,-0.6689812,-26724.58
8.09,-0.08098608,-29.32866,-1493697,0,0,0,-0.674884,-26916.22
8.146,-0.0814583,-29.51101,-1502984,0,0,0,-0.6788192,-27083.57
8.202,-0.08216663,-29.70636,-1512933,0,0,0,-0.6847219,-27262.86
8.27,-0.08287497,-29.91053,-1523331,0,0,0,-0.6906247,-27450.22
8.328,-0.08334719,-30.09533,-1532743,0,0,0,-0.6945599,-27619.82
8.386,-0.08405552,-30.27921,-1542108,0,0,0,-0.7004626,-27788.58
8.452,-0.08452775,-30.46755,-1551699,0,0,0,-0.7043979,-27961.43
8.516,-0.08523608,-30.64565,-1560770,0,0,0,-0.7103007,-28124.88
8.58,-0.0857083,-30.82235,-1569770,0,0,0,-0.7142358,-28287.05
8.64,-0.08641663,-31.02728,-1580206,0,0,0,-0.7201386,-28475.12
8.71,-0.08712496,-31.23098,-1590581,0,0,0,-0.7260414,-28662.06
8.77,-0.0878333,-31.44823,-1601645,0,0,0,-0.7319442,-28861.44
8.832,-0.08830551,-31.63566,-1611191,0,0,0,-0.7358793,-29033.45
8.9,-0.08901386,-31.81771,-1620463,0,0,0,-0.7417821,-29200.53
8.958,-0.08948608,-32.02349,-1630943,0,0,0,-0.7457173,-29389.38
9.03,-0.09019441,-32.22857,-1641388,0,0,0,-0.7516201,-29577.59
9.09,-0.09090274,-32.41792,-1651031,0,0,0,-0.7575228,-29751.37
9.148,-0.09161107,-32.62387,-1661520,0,0,0,-0.7634256,-29940.38
9.216,-0.09208329,-32.7985,-1670414,0,0,0,-0.7673607,-30100.64
9.272,-0.09279162,-32.99929,-1680640,0,0,0,-0.7732635,-30284.92
9.34,-0.09349996,-33.19657,-1690687,0,0,0,-0.7791663,-30465.97
9.408,-0.09397218,-33.40164,-1701132,0,0,0,-0.7831016,-30654.17
9.474,-0.09468052,-33.6115,-1711820,0,0,0,-0.7890043,-30846.77
9.532,-0.09538885,-33.78414,-1720612,0,0,0,-0.7949071,-31005.21
9.59,-0.09586107,-33.9956,-1731382,0,0,0,-0.7988423,-31199.28
9.656,-0.0965694,-34.17771,-1740657,0,0,0,-0.804745,-31366.41
9.72,-0.09727774,-34.3652,-1750205,0,0,0,-0.8106478,-31538.48
9.778,-0.09774995,-34.5694,-1760605,0,0,0,-0.8145829,-31725.88
9.844,-0.09845829,-34.75516,-1770066,0,0,0,-0.8204858,-31896.36
9.9,-0.09916662,-34.94322,-1779644,0,0,0,-0.8263885,-32068.95
9.968,-0.09987496,-35.14142,-1789738,0,0,0,-0.8322913,-32250.85
9.992,-0.1001111,-35.22717,-1794105,0,0,0,-0.834259,-32329.55