Folder: p1-start/raw-data

File: Sp15_245L_sec-001_group-01_bendtest-tungsten.raw
"Test Type","Manual"
"Method Name:","C:\INSTRON\user\template\245L-Mod01.mtM"
"Name:","4FtPerMin"
"Operator ID:","Jaques"
"Company:","BSU"
"Lab name:",""
"Test date:","1/26/15"
"Temperature:",""
"Humidity:",""
"Note 1:",""
"Note 2:",""
"Note 3:",""
"Geometry:","Circular"
"Specimen",1
"Specimen name:",""
"Width:",6.350000,"mm"
"Thickness:",1.524000,"mm"
"Length:",12,"mm"
"Diameter:",5.000000,"um"
"Inner diameter:",0.500000,"mm"
"Outer diameter:",1.000000,"mm"
"Wall thickness:",0.500000,"mm"
"Area:",19.635,"um*um"
"Linear density:",1.000000,"den"
"Sled weight:",9.806650,"N"
"Loading span:",0.000000,"mm"
"Support span:",1.000000,"mm"
"Span ratio:","2"
"Fixture type:","3-point"
"Comment:",""
"Included"
"Time sec","Extension mm","Load N","Stress MPa","Cycle Count ","Total Cycle Count ","Repetitions Count ","Strain [Exten.] %","Tenacity gf/tex"
0,0,-5.158131,-262701.5,0,0,0,0,-4733.847
0.052,0,-5.131649,-261352.8,0,0,0,0,-4709.543
0.104,0,-5.188565,-264251.4,0,0,0,0,-4761.777
0.154,0,-5.124211,-260973.9,0,0,0,0,-4702.717
0.212,0,-5.237714,-266754.6,0,0,0,0,-4806.884
0.28,-0.000472222,-5.264143,-268100.6,0,0,0,-0.003935183,-4831.139
0.338,-0.000944444,-5.361426,-273055.2,0,0,0,-0.007870367,-4920.42
0.382,-0.000944444,-5.487858,-279494.3,0,0,0,-0.007870367,-5036.452
0.448,-0.001652777,-5.556521,-282991.3,0,0,0,-0.01377314,-5099.467
0.48,-0.002597221,-5.705109,-290558.8,0,0,0,-0.02164351,-5235.833
0.516,-0.003541665,-5.831568,-296999.3,0,0,0,-0.02951388,-5351.89
0.54,-0.004249998,-5.943013,-302675.2,0,0,0,-0.03541665,-5454.168
0.57,-0.005194443,-6.063282,-308800.4,0,0,0,-0.04328702,-5564.544
0.608,-0.005902775,-6.189564,-315231.9,0,0,0,-0.04918979,-5680.438
0.664,-0.006611108,-6.282691,-319974.8,0,0,0,-0.05509257,-5765.906
0.736,-0.007319441,-6.324824,-322120.7,0,0,0,-0.06099534,-5804.573
0.774,-0.007555552,-6.429263,-327439.7,0,0,0,-0.06296293,-5900.422
0.848,-0.008263885,-6.459026,-328955.5,0,0,0,-0.06886571,-5927.736
0.916,-0.008972219,-6.54109,-333135,0,0,0,-0.07476849,-6003.05
0.966,-0.00944444,-6.642693,-338309.6,0,0,0,-0.07870367,-6096.295
1.044,-0.01015277,-6.736059,-343064.7,0,0,0,-0.08460645,-6181.981
1.118,-0.01109722,-6.825317,-347610.5,0,0,0,-0.09247681,-6263.897
1.188,-0.01180555,-6.930307,-352957.7,0,0,0,-0.09837959,-6360.252
1.254,-0.01227777,-7.024215,-357740.3,0,0,0,-0.1023148,-6446.436
1.33,-0.01322222,-7.112421,-362232.6,0,0,0,-0.1101851,-6527.386
1.414,-0.01393055,-7.201148,-366751.5,0,0,0,-0.1160879,-6608.815
1.472,-0.01463888,-7.288917,-371221.5,0,0,0,-0.1219907,-6689.365
1.534,-0.01534721,-7.381016,-375912.1,0,0,0,-0.1278935,-6773.888
1.612,-0.01605555,-7.458893,-379878.3,0,0,0,-0.1337962,-6845.358
1.662,-0.01676388,-7.551029,-384570.8,0,0,0,-0.139699,-6929.917
1.724,-0.01747222,-7.640674,-389136.3,0,0,0,-0.1456018,-7012.187
1.786,-0.01818055,-7.723401,-393349.6,0,0,0,-0.1515046,-7088.109
1.868,-0.01888888,-7.806321,-397572.7,0,0,0,-0.1574073,-7164.208
1.928,-0.0193611,-7.913773,-403045.2,0,0,0,-0.1613425,-7262.822
2.006,-0.02030555,-7.993884,-407125.2,0,0,0,-0.1692129,-7336.344
2.086,-0.02101388,-8.082958,-411661.7,0,0,0,-0.1751157,-7418.091
2.16,-0.02172221,-8.173883,-416292.4,0,0,0,-0.1810184,-7501.537
2.214,-0.02243054,-8.268264,-421099.3,0,0,0,-0.1869212,-7588.155
2.288,-0.02313888,-8.349968,-425260.4,0,0,0,-0.192824,-7663.138
2.364,-0.02384721,-8.449115,-430309.9,0,0,0,-0.1987268,-7754.129
2.444,-0.02455555,-8.546841,-435287.1,0,0,0,-0.2046295,-7843.817
2.512,-0.02526388,-8.631187,-439582.7,0,0,0,-0.2105323,-7921.225
2.592,-0.02620832,-8.718374,-444023.2,0,0,0,-0.2184027,-8001.241
2.674,-0.02691665,-8.82499,-449453.1,0,0,0,-0.2243055,-8099.087
2.756,-0.02762499,-8.912105,-453889.8,0,0,0,-0.2302082,-8179.036
2.82,-0.02833332,-9.002212,-458478.9,0,0,0,-0.236111,-8261.73
2.906,-0.02927776,-9.094995,-463204.3,0,0,0,-0.2439814,-8346.883
2.958,-0.02974999,-9.184434,-467759.4,0,0,0,-0.2479166,-8428.965
3.052,-0.03069443,-9.268385,-472035,0,0,0,-0.2557869,-8506.011
3.116,-0.03140276,-9.367854,-477100.9,0,0,0,-0.2616897,-8597.298
3.184,-0.0321111,-9.449901,-481279.5,0,0,0,-0.2675925,-8672.596
3.258,-0.03281943,-9.532634,-485493.1,0,0,0,-0.2734953,-8748.523
3.332,-0.03352777,-9.619359,-489909.9,0,0,0,-0.2793981,-8828.114
3.39,-0.0342361,-9.709978,-494525.2,0,0,0,-0.2853008,-8911.28
3.464,-0.03494443,-9.804301,-499329,0,0,0,-0.2912036,-8997.844
3.54,-0.03541665,-9.835803,-500933.3,0,0,0,-0.2951388,-9026.755
3.62,-0.03612498,-9.916247,-505030.3,0,0,0,-0.3010415,-9100.582
3.692,-0.03659721,-10.01162,-509887.7,0,0,0,-0.3049767,-9188.111
3.762,-0.03730554,-10.11025,-514911,0,0,0,-0.3108795,-9278.631
3.832,-0.03824999,-10.19237,-519093,0,0,0,-0.3187499,-9353.99
3.904,-0.03895832,-10.27803,-523456,0,0,0,-0.3246527,-9432.611
3.974,-0.03966665,-10.37138,-528209.9,0,0,0,-0.3305554,-9518.275
4.052,-0.04037498,-10.45042,-532235.3,0,0,0,-0.3364582,-9590.813
4.122,-0.04108332,-10.5396,-536777.5,0,0,0,-0.342361,-9672.662
4.184,-0.04179165,-10.62268,-541008.7,0,0,0,-0.3482637,-9748.907
4.27,-0.04249998,-10.71232,-545574.1,0,0,0,-0.3541665,-9831.176
4.33,-0.04320832,-10.80263,-550173.3,0,0,0,-0.3600693,-9914.053
4.408,-0.04391665,-10.89308,-554779.9,0,0,0,-0.3659721,-9997.063
4.486,-0.04486109,-10.97881,-559146.1,0,0,0,-0.3738424,-10075.74
4.566,-0.04556942,-11.07481,-564035.3,0,0,0,-0.3797452,-10163.84
4.624,-0.04627776,-11.16503,-568630.5,0,0,0,-0.385648,-10246.65
4.698,-0.04698609,-11.24869,-572890.9,0,0,0,-0.3915508,-10323.42
4.768,-0.04769443,-11.33362,-577216.8,0,0,0,-0.3974535,-10401.37
4.826,-0.04816664,-11.41808,-581517.8,0,0,0,-0.4013887,-10478.88
4.904,-0.04911109,-11.50269,-585826.9,0,0,0,-0.4092591,-10556.53
4.968,-0.04981942,-11.58508,-590023.4,0,0,0,-0.4151618,-10632.15
5.034,-0.05052776,-11.67862,-594787.2,0,0,0,-0.4210646,-10717.99
5.114,-0.05123609,-11.76139,-599002.8,0,0,0,-0.4269674,-10793.95
5.19,-0.05194442,-11.8455,-603286.1,0,0,0,-0.4328702,-10871.14
5.26,-0.05265275,-11.93222,-607702.9,0,0,0,-0.4387729,-10950.73
5.336,-0.05336109,-12.01032,-611680.4,0,0,0,-0.4446757,-11022.4
5.416,-0.05406942,-12.10296,-616398.9,0,0,0,-0.4505785,-11107.43
5.482,-0.05454164,-12.19144,-620904.9,0,0,0,-0.4545137,-11188.63
5.558,-0.05548609,-12.27747,-625286.7,0,0,0,-0.4623841,-11267.59
5.636,-0.05619442,-12.37594,-630301.5,0,0,0,-0.4682868,-11357.95
5.706,-0.05690275,-12.46512,-634843.4,0,0,0,-0.4741896,-11439.8
5.78,-0.05761109,-12.55223,-639279.8,0,0,0,-0.4800924,-11519.74
5.85,-0.05831942,-12.6372,-643607.1,0,0,0,-0.4859952,-11597.72
5.92,-0.05902775,-12.73817,-648749.8,0,0,0,-0.4918979,-11690.39
5.992,-0.05973608,-12.83873,-653871.2,0,0,0,-0.4978007,-11782.68
6.068,-0.06044442,-12.90883,-657441.5,0,0,0,-0.5037035,-11847.01
6.144,-0.06115275,-12.99094,-661623.2,0,0,0,-0.5096063,-11922.37
6.196,-0.06186108,-13.08225,-666273.8,0,0,0,-0.515509,-12006.17
6.278,-0.06256942,-13.16864,-670673.4,0,0,0,-0.5214118,-12085.45
6.348,-0.06327775,-13.24934,-674783.3,0,0,0,-0.5273145,-12159.51
6.43,-0.0642222,-13.34549,-679680,0,0,0,-0.535185,-12247.75
6.49,-0.06469441,-13.44538,-684767.4,0,0,0,-0.5391201,-12339.42
6.554,-0.06540275,-13.52738,-688943.7,0,0,0,-0.5450229,-12414.68
6.638,-0.06611108,-13.61378,-693344.3,0,0,0,-0.5509257,-12493.97
6.71,-0.06705553,-13.67844,-696637.1,0,0,0,-0.5587961,-12553.31
6.76,-0.06752774,-13.78133,-701877.6,0,0,0,-0.5627312,-12647.74
[...]
5.718,-0.05713886,-7.857847,-400196.9,0,0,0,-0.4761572,-7211.497
5.792,-0.0578472,-7.895126,-402095.5,0,0,0,-0.48206,-7245.709
5.862,-0.05855553,-7.909724,-402838.9,0,0,0,-0.4879628,-7259.106
5.924,-0.05902775,-7.951947,-404989.3,0,0,0,-0.4918979,-7297.856
5.996,-0.05997219,-7.986952,-406772.1,0,0,0,-0.4997683,-7329.981
6.088,-0.06091664,-8.010866,-407990.1,0,0,0,-0.5076387,-7351.929
6.16,-0.06162497,-8.056261,-410302,0,0,0,-0.5135415,-7393.59
6.24,-0.06233331,-8.067478,-410873.3,0,0,0,-0.5194442,-7403.885
6.286,-0.06280552,-8.100744,-412567.5,0,0,0,-0.5233794,-7434.414
6.346,-0.06327775,-8.114292,-413257.5,0,0,0,-0.5273145,-7446.848
6.404,-0.06398609,-8.138394,-414485,0,0,0,-0.5332174,-7468.967
6.474,-0.06469441,-8.174649,-416331.5,0,0,0,-0.5391201,-7502.24
6.566,-0.06563886,-8.203818,-417817.1,0,0,0,-0.5469905,-7529.01
6.638,-0.06634719,-8.234998,-419405,0,0,0,-0.5528933,-7557.625
6.73,-0.06729164,-8.273807,-421381.6,0,0,0,-0.5607637,-7593.242
6.826,-0.06823608,-8.302893,-422862.9,0,0,0,-0.568634,-7619.936
6.892,-0.06894442,-8.349837,-425253.7,0,0,0,-0.5745368,-7663.018
6.976,-0.06965275,-8.386661,-427129.2,0,0,0,-0.5804396,-7696.813
7.062,-0.0705972,-8.421104,-428883.3,0,0,0,-0.58831,-7728.423
7.124,-0.07130553,-8.44982,-430345.8,0,0,0,-0.5942127,-7754.776
7.194,-0.07177775,-8.484244,-432099,0,0,0,-0.5981479,-7786.369
7.266,-0.07272219,-8.513438,-433585.8,0,0,0,-0.6060182,-7813.161
7.334,-0.07343053,-8.549114,-435402.8,0,0,0,-0.6119211,-7845.903
7.418,-0.07413886,-8.574517,-436696.6,0,0,0,-0.6178238,-7869.216
7.494,-0.0750833,-8.603902,-438193.1,0,0,0,-0.6256942,-7896.184
7.57,-0.07579163,-8.642396,-440153.6,0,0,0,-0.6315969,-7931.512
7.63,-0.07649997,-8.660904,-441096.2,0,0,0,-0.6374997,-7948.498
7.722,-0.07744441,-8.689997,-442577.9,0,0,0,-0.6453701,-7975.198
7.786,-0.07791664,-8.727347,-444480.1,0,0,0,-0.6493053,-8009.475
7.858,-0.07886108,-8.750833,-445676.3,0,0,0,-0.6571757,-8031.029
7.924,-0.0793333,-8.783338,-447331.7,0,0,0,-0.6611109,-8060.861
8.002,-0.08027774,-8.817629,-449078.2,0,0,0,-0.6689812,-8092.331
8.1,-0.08122219,-8.85464,-450963.1,0,0,0,-0.6768516,-8126.298
8.194,-0.08216663,-8.889731,-452750.3,0,0,0,-0.6847219,-8158.502
8.26,-0.08263885,-8.940704,-455346.3,0,0,0,-0.6886571,-8205.283
8.332,-0.0835833,-8.958774,-456266.6,0,0,0,-0.6965275,-8221.866
8.426,-0.08452775,-8.997729,-458250.6,0,0,0,-0.7043979,-8257.617
8.52,-0.08547218,-9.030889,-459939.4,0,0,0,-0.7122682,-8288.05
8.616,-0.08641663,-9.068372,-461848.4,0,0,0,-0.7201386,-8322.449
8.692,-0.08712496,-9.101585,-463539.9,0,0,0,-0.7260414,-8352.93
8.778,-0.08806941,-9.137576,-465372.9,0,0,0,-0.7339118,-8385.961
8.84,-0.08877774,-9.173653,-467210.3,0,0,0,-0.7398145,-8419.07
8.914,-0.08948608,-9.210468,-469085.3,0,0,0,-0.7457173,-8452.857
8.99,-0.09019441,-9.225289,-469840.1,0,0,0,-0.7516201,-8466.459
9.06,-0.09066664,-9.261734,-471696.3,0,0,0,-0.7555553,-8499.906
9.142,-0.09137496,-9.282709,-472764.5,0,0,0,-0.761458,-8519.156
9.206,-0.09208329,-9.319691,-474648,0,0,0,-0.7673607,-8553.096
9.278,-0.09279162,-9.353492,-476369.5,0,0,0,-0.7732635,-8584.117
9.382,-0.09397218,-9.391895,-478325.3,0,0,0,-0.7831016,-8619.361
9.492,-0.09491662,-9.402561,-478868.5,0,0,0,-0.7909719,-8629.149
9.6,-0.09586107,-9.404061,-478944.9,0,0,0,-0.7988423,-8630.526
9.686,-0.09680552,-9.423261,-479922.7,0,0,0,-0.8067126,-8648.146
9.756,-0.09751385,-9.465449,-482071.4,0,0,0,-0.8126154,-8686.865
9.844,-0.09845829,-9.490447,-483344.5,0,0,0,-0.8204858,-8709.807
9.89,-0.09893051,-9.536359,-485682.8,0,0,0,-0.8244209,-8751.942
9.98,-0.09987496,-9.568426,-487315.9,0,0,0,-0.8322913,-8781.371
10.002,-0.1001111,-9.576138,-487708.7,0,0,0,-0.834259,-8788.449

File: Sp15_245L_sect-001_group-1_glass.raw
"Test Type","Manual"
"Method Name:","C:\INSTRON\user\template\245L-Mod01.mtM"
"Name:","4FtPerMin"
"Operator ID:","Jaques"
"Company:","BSU"
"Lab name:",""
"Test date:","1/26/15"
"Temperature:",""
"Humidity:",""
"Note 1:",""
"Note 2:",""
"Note 3:",""
"Geometry:","Circular"
"Specimen",1
"Specimen name:",""
"Width:",6.350000,"mm"
"Thickness:",1.524000,"mm"
"Length:",12,"mm"
"Diameter:",5.000000,"um"
"Inner diameter:",0.500000,"mm"
"Outer diameter:",1.000000,"mm"
"Wall thickness:",0.500000,"mm"
"Area:",19.635,"um*um"
"Linear density:",1.000000,"den"
"Sled weight:",9.806650,"N"
"Loading span:",0.000000,"mm"
"Support span:",1.000000,"mm"
"Span ratio:","2"
"Fixture type:","3-point"
"Comment:",""
"Included"
"Time sec","Extension mm","Load N","Stress MPa","Cycle Count ","Total Cycle Count ","Repetitions Count ","Strain [Exten.] %","Tenacity gf/tex"
0,0,-4.687013,-238707.6,0,0,0,0,-4301.48
0.056,0,-4.670909,-237887.4,0,0,0,0,-4286.701
0.144,-0.000236111,-4.708138,-239783.5,0,0,0,-0.001967592,-4320.868
0.188,-0.000472222,-4.824738,-245721.9,0,0,0,-0.003935183,-4427.877
0.24,-0.0007083331,-4.928245,-250993.5,0,0,0,-0.005902776,-4522.871
0.292,-0.001180555,-5.036968,-256530.7,0,0,0,-0.009837959,-4622.65
0.37,-0.001652777,-5.127995,-261166.6,0,0,0,-0.01377314,-4706.189
0.44,-0.002124999,-5.217808,-265740.8,0,0,0,-0.01770833,-4788.615
0.518,-0.002597221,-5.25994,-267886.6,0,0,0,-0.02164351,-4827.282
0.552,-0.003305554,-5.367214,-273350,0,0,0,-0.02754628,-4925.732
0.592,-0.003777776,-5.463663,-278262.1,0,0,0,-0.03148147,-5014.247
0.626,-0.004486109,-5.575397,-283952.6,0,0,0,-0.03738425,-5116.79
0.66,-0.004958331,-5.671043,-288823.9,0,0,0,-0.04131943,-5204.569
0.696,-0.005430553,-5.770655,-293897.1,0,0,0,-0.04525461,-5295.988
0.728,-0.006138886,-5.865028,-298703.4,0,0,0,-0.05115739,-5382.598
0.766,-0.006611108,-5.958194,-303448.3,0,0,0,-0.05509257,-5468.1
0.814,-0.007319441,-6.055115,-308384.5,0,0,0,-0.06099534,-5557.049
0.868,-0.008027775,-6.151185,-313277.3,0,0,0,-0.06689812,-5645.217
0.922,-0.008736108,-6.251385,-318380.4,0,0,0,-0.0728009,-5737.175
0.992,-0.00944444,-6.346047,-323201.5,0,0,0,-0.07870367,-5824.051
1.058,-0.01038889,-6.430272,-327491.1,0,0,0,-0.08657404,-5901.347
1.128,-0.01109722,-6.520939,-332108.7,0,0,0,-0.09247681,-5984.556
1.196,-0.01180555,-6.614437,-336870.5,0,0,0,-0.09837959,-6070.364
1.28,-0.01251388,-6.707138,-341591.8,0,0,0,-0.1042824,-6155.439
1.362,-0.01345833,-6.797233,-346180.3,0,0,0,-0.1121527,-6238.124
1.428,-0.01416666,-6.892027,-351008.1,0,0,0,-0.1180555,-6325.121
1.496,-0.01487499,-6.975371,-355252.8,0,0,0,-0.1239583,-6401.609
1.572,-0.01558333,-7.056164,-359367.5,0,0,0,-0.1298611,-6475.756
1.638,-0.01629166,-7.12708,-362979.2,0,0,0,-0.1357638,-6540.839
1.692,-0.01676388,-7.22549,-367991.2,0,0,0,-0.139699,-6631.154
1.772,-0.01770833,-7.305295,-372055.6,0,0,0,-0.1475694,-6704.395
1.854,-0.01841666,-7.388996,-376318.5,0,0,0,-0.1534722,-6781.211
1.934,-0.0193611,-7.472004,-380546,0,0,0,-0.1613425,-6857.391
1.988,-0.01983333,-7.581163,-386105.5,0,0,0,-0.1652777,-6957.571
2.042,-0.02030555,-7.593216,-386719.3,0,0,0,-0.1692129,-6968.633
2.08,-0.02077777,-7.693466,-391825,0,0,0,-0.1731481,-7060.637
2.16,-0.0214861,-7.780392,-396252.1,0,0,0,-0.1790509,-7140.413
2.234,-0.02243054,-7.858963,-400253.7,0,0,0,-0.1869212,-7212.521
2.314,-0.02313888,-7.940814,-404422.3,0,0,0,-0.192824,-7287.639
2.366,-0.0236111,-8.03618,-409279.3,0,0,0,-0.1967592,-7375.161
2.454,-0.02455555,-8.109644,-413020.8,0,0,0,-0.2046295,-7442.582
2.518,-0.02502777,-8.203392,-417795.3,0,0,0,-0.2085647,-7528.619
2.596,-0.02597221,-8.292041,-422310.2,0,0,0,-0.2164351,-7609.976
2.678,-0.02668055,-8.384218,-427004.8,0,0,0,-0.2223379,-7694.571
2.752,-0.02738888,-8.467855,-431264.3,0,0,0,-0.2282407,-7771.328
2.82,-0.02809721,-8.563492,-436135.1,0,0,0,-0.2341434,-7859.099
2.906,-0.02880554,-8.644469,-440259.2,0,0,0,-0.2400462,-7933.415
2.976,-0.02974999,-8.728633,-444545.6,0,0,0,-0.2479166,-8010.655
3.038,-0.03022221,-8.821133,-449256.6,0,0,0,-0.2518517,-8095.547
3.13,-0.03116666,-8.917124,-454145.4,0,0,0,-0.2597221,-8183.643
3.206,-0.03187499,-9.005543,-458648.5,0,0,0,-0.2656249,-8264.788
3.296,-0.03281943,-9.096913,-463302,0,0,0,-0.2734953,-8348.643
3.366,-0.03352777,-9.183863,-467730.3,0,0,0,-0.2793981,-8428.44
3.444,-0.0342361,-9.274052,-472323.6,0,0,0,-0.2853008,-8511.212
3.518,-0.03494443,-9.368084,-477112.6,0,0,0,-0.2912036,-8597.509
3.598,-0.03588887,-9.449684,-481268.5,0,0,0,-0.299074,-8672.396
3.66,-0.0363611,-9.549617,-486358,0,0,0,-0.3030091,-8764.109
3.756,-0.03730554,-9.632412,-490574.8,0,0,0,-0.3108795,-8840.095
3.814,-0.03801387,-9.716175,-494840.8,0,0,0,-0.3167823,-8916.968
3.884,-0.03872221,-9.800375,-499129,0,0,0,-0.322685,-8994.24
3.96,-0.03943054,-9.887089,-503545.3,0,0,0,-0.3285878,-9073.822
4.04,-0.04013887,-9.969431,-507739,0,0,0,-0.3344906,-9149.392
4.104,-0.0408472,-10.04785,-511733,0,0,0,-0.3403934,-9221.363
4.168,-0.04155554,-10.13259,-516048.8,0,0,0,-0.3462962,-9299.134
4.264,-0.04249998,-10.22352,-520679.6,0,0,0,-0.3541665,-9382.58
4.334,-0.04320832,-10.31264,-525218.4,0,0,0,-0.3600693,-9464.37
4.396,-0.04368054,-10.40749,-530049.4,0,0,0,-0.3640045,-9551.422
4.47,-0.04438887,-10.48086,-533785.7,0,0,0,-0.3699073,-9618.75
4.55,-0.04533332,-10.54919,-537266.1,0,0,0,-0.3777776,-9681.466
4.62,-0.04604165,-10.64514,-542152.7,0,0,0,-0.3836804,-9769.522
4.678,-0.04651387,-10.73439,-546698.2,0,0,0,-0.3876156,-9851.433
4.758,-0.04745831,-10.81896,-551004.9,0,0,0,-0.3954859,-9929.038
4.83,-0.04793053,-10.90577,-555426.4,0,0,0,-0.3994211,-10008.71
4.922,-0.04887498,-10.99494,-559967.8,0,0,0,-0.4072915,-10090.55
4.974,-0.04958331,-11.09207,-564914.7,0,0,0,-0.4131942,-10179.69
5.056,-0.05029164,-11.188,-569800.4,0,0,0,-0.419097,-10267.73
5.124,-0.05099998,-11.26434,-573688.1,0,0,0,-0.4249998,-10337.79
5.19,-0.05170831,-11.35265,-578185.6,0,0,0,-0.4309026,-10418.83
5.258,-0.05241664,-11.44494,-582886.2,0,0,0,-0.4368054,-10503.53
5.344,-0.05312498,-11.52578,-587002.9,0,0,0,-0.4427081,-10577.72
5.414,-0.05383331,-11.60934,-591259.1,0,0,0,-0.4486109,-10654.41
5.482,-0.05454164,-11.70357,-596057.8,0,0,0,-0.4545137,-10740.88
5.552,-0.05524998,-11.79023,-600471.6,0,0,0,-0.4604165,-10820.42
5.622,-0.05595831,-11.87659,-604869.8,0,0,0,-0.4663192,-10899.68
5.698,-0.05690275,-11.96169,-609204.1,0,0,0,-0.4741896,-10977.78
5.774,-0.05761109,-12.04343,-613366.8,0,0,0,-0.4800924,-11052.79
5.836,-0.05808331,-12.13306,-617931.6,0,0,0,-0.4840276,-11135.05
5.916,-0.05902775,-12.22991,-622864.4,0,0,0,-0.4918979,-11223.94
6.006,-0.05973608,-12.33564,-628249.2,0,0,0,-0.4978007,-11320.97
6.094,-0.06068053,-12.41718,-632401.9,0,0,0,-0.5056711,-11395.8
6.168,-0.06138886,-12.51629,-637449.7,0,0,0,-0.5115739,-11486.76
6.226,-0.0620972,-12.61893,-642676.6,0,0,0,-0.5174766,-11580.95
6.306,-0.06280552,-12.69509,-646555.4,0,0,0,-0.5233794,-11650.85
6.366,-0.06374998,-12.77531,-650641.1,0,0,0,-0.5312498,-11724.47
6.41,-0.0642222,-12.8747,-655702.9,0,0,0,-0.535185,-11815.68
6.474,-0.06516664,-12.95615,-659851.4,0,0,0,-0.5430554,-11890.44
6.572,-0.06587497,-13.04226,-664236.8,0,0,0,-0.5489581,-11969.46
6.652,-0.06658331,-13.10546,-667455.8,0,0,0,-0.5548609,-12027.47
6.71,-0.06705553,-13.18297,-671403.3,0,0,0,-0.5587961,-12098.6
6.794,-0.06776386,-13.27248,-675961.8,0,0,0,-0.5646988,-12180.75
6.872,-0.0687083,-13.34427,-679617.9,0,0,0,-0.5725692,-12246.63
6.942,-0.06918052,-13.44608,-684803,0,0,0,-0.5765043,-12340.06
7.008,-0.06988886,-13.53378,-689269.9,0,0,0,-0.5824072,-12420.56
7.092,-0.0708333,-13.61904,-693612.2,0,0,0,-0.5902776,-12498.8
7.174,-0.07154164,-13.69992,-697731.3,0,0,0,-0.5961803,-12573.03
7.244,-0.07248608,-13.79781,-702716.9,0,0,0,-0.6040506,-12662.87
7.314,-0.07319441,-13.89422,-707626.8,0,0,0,-0.6099535,-12751.34
7.384,-0.07390274,-13.97977,-711984,0,0,0,-0.6158562,-12829.86
7.458,-0.07461108,-14.05385,-715756.8,0,0,0,-0.621759,-12897.85
7.518,-0.0750833,-14.14165,-720228.3,0,0,0,-0.6256942,-12978.42
7.592,-0.07602775,-14.21753,-724092.7,0,0,0,-0.6335645,-13048.06
7.67,-0.07673609,-14.30628,-728612.8,0,0,0,-0.6394674,-13129.51
7.768,-0.07744441,-14.39073,-732913.8,0,0,0,-0.6453701,-13207.01
7.836,-0.07815275,-14.45928,-736405.2,0,0,0,-0.651273,-13269.93
7.918,-0.07909719,-14.55056,-741054.1,0,0,0,-0.6591433,-13353.7
7.988,-0.07980552,-14.64592,-745910.4,0,0,0,-0.665046,-13441.21
8.078,-0.08051386,-14.73389,-750390.8,0,0,0,-0.6709488,-13521.95
8.134,-0.08122219,-14.80738,-754133.6,0,0,0,-0.6768516,-13589.39
8.218,-0.08193052,-14.89328,-758508.8,0,0,0,-0.6827543,-13668.23
8.294,-0.08263885,-14.97396,-762617.7,0,0,0,-0.6886571,-13742.27
8.366,-0.0835833,-15.0618,-767091,0,0,0,-0.6965275,-13822.88
8.438,-0.08429163,-15.15164,-771666.7,0,0,0,-0.7024302,-13905.33
8.52,-0.08499997,-15.2338,-775851.1,0,0,0,-0.708333,-13980.74
8.6,-0.08594441,-15.31648,-780061.9,0,0,0,-0.7162035,-14056.62
8.668,-0.08665274,-15.41231,-784942.4,0,0,0,-0.7221062,-14144.56
8.75,-0.08736108,-15.50058,-789438.1,0,0,0,-0.728009,-14225.57
8.85,-0.08830551,-15.60166,-794585.9,0,0,0,-0.7358793,-14318.34
8.928,-0.08901386,-15.68887,-799027.4,0,0,0,-0.7417821,-14398.37
8.998,-0.08995829,-15.75875,-802586.6,0,0,0,-0.7496524,-14462.51
9.076,-0.09066664,-15.85013,-807240.3,0,0,0,-0.7555553,-14546.37
9.15,-0.09137496,-15.93097,-811357.4,0,0,0,-0.761458,-14620.56
9.232,-0.09231941,-16.01174,-815471.2,0,0,0,-0.7693284,-14694.69
9.316,-0.09302774,-16.10971,-820460.6,0,0,0,-0.7752311,-14784.6
9.408,-0.09397218,-16.20179,-825150.4,0,0,0,-0.7831016,-14869.11
9.496,-0.09491662,-16.29366,-829829.2,0,0,0,-0.7909719,-14953.42
9.59,-0.09586107,-16.37703,-834075.3,0,0,0,-0.7988423,-15029.93
9.676,-0.0965694,-16.46665,-838639.9,0,0,0,-0.804745,-15112.18
9.754,-0.09751385,-16.55377,-843076.4,0,0,0,-0.8126154,-15192.13
9.838,-0.09822218,-16.64952,-847953.1,0,0,0,-0.8185182,-15280.01
9.9,-0.09893051,-16.73608,-852361.8,0,0,0,-0.8244209,-15359.45
9.97,-0.09963885,-16.82444,-856861.6,0,0,0,-0.8303237,-15440.54
9.998,-0.1001111,-16.8472,-858020.9,0,0,0,-0.834259,-15461.43